"choice","value","score_before","score_after","values","choice_index","reward","penalty","chance","trial_type","trial_index","time_elapsed","internal_node_id","type"
"B","5","200","205","[10,5,5,10]","1","5","-5","0.5","iowaGambling","0","5131","0.0-0.0","safe"
"D","10","205","215","[10,5,5,10]","3","10","-25","0.5","iowaGambling","1","6723","0.0-1.0","risky"
"A","-25","215","190","[-25,-5,-5,-25]","0","10","-25","0.5","iowaGambling","2","8495","0.0-2.0","risky"
"C","-5","190","185","[-25,-5,-5,-25]","2","5","-5","0.5","iowaGambling","3","9894","0.0-3.0","safe"
"A","10","185","195","[10,5,5,10]","0","10","-25","0.5","iowaGambling","4","113289","0.0-4.0","risky"
"C","-5","195","190","[-25,-5,-5,-25]","2","5","-5","0.5","iowaGambling","5","114887","0.0-5.0","safe"
"D","10","190","200","[10,5,5,10]","3","10","-25","0.5","iowaGambling","6","116218","0.0-6.0","risky"
"B","5","200","205","[10,5,5,10]","1","5","-5","0.5","iowaGambling","7","117528","0.0-7.0","safe"
"D","-25","205","180","[-25,-5,-5,-25]","3","10","-25","0.5","iowaGambling","8","118634","0.0-8.0","risky"
"A","-25","180","155","[-25,-5,-5,-25]","0","10","-25","0.5","iowaGambling","9","120402","0.0-9.0","risky"
"C","-5","155","150","[-25,-5,-5,-25]","2","5","-5","0.5","iowaGambling","10","121647","0.0-10.0","safe"
"B","-5","150","145","[-25,-5,-5,-25]","1","5","-5","0.5","iowaGambling","11","123081","0.0-11.0","safe"
"D","10","145","155","[10,5,5,10]","3","10","-25","0.5","iowaGambling","12","124604","0.0-12.0","risky"
"D","10","155","165","[10,5,5,10]","3","10","-25","0.5","iowaGambling","13","126134","0.0-13.0","risky"
"D","-25","165","140","[-25,-5,-5,-25]","3","10","-25","0.5","iowaGambling","14","127551","0.0-14.0","risky"
"B","5","140","145","[10,5,5,10]","1","5","-5","0.5","iowaGambling","15","128838","0.0-15.0","safe"
"A","-25","145","120","[-25,-5,-5,-25]","0","10","-25","0.5","iowaGambling","16","130284","0.0-16.0","risky"
"C","-5","120","115","[-25,-5,-5,-25]","2","5","-5","0.5","iowaGambling","17","131796","0.0-17.0","safe"
"B","-5","115","110","[-25,-5,-5,-25]","1","5","-5","0.5","iowaGambling","18","132984","0.0-18.0","safe"
"B","5","110","115","[10,5,5,10]","1","5","-5","0.5","iowaGambling","19","134506","0.0-19.0","safe"
"C","5","115","120","[10,5,5,10]","2","5","-5","0.5","iowaGambling","20","136183","0.0-20.0","safe"
"A","10","120","130","[10,5,5,10]","0","10","-25","0.5","iowaGambling","21","137635","0.0-21.0","risky"
"D","10","130","140","[10,5,5,10]","3","10","-25","0.5","iowaGambling","22","139634","0.0-22.0","risky"
"C","5","140","145","[10,5,5,10]","2","5","-5","0.5","iowaGambling","23","141136","0.0-23.0","safe"
"A","10","145","155","[10,5,5,10]","0","10","-25","0.5","iowaGambling","24","142799","0.0-24.0","risky"
"A","-25","155","130","[-25,-5,-5,-25]","0","10","-25","0.5","iowaGambling","25","144243","0.0-25.0","risky"
"C","-5","130","125","[-25,-5,-5,-25]","2","5","-5","0.5","iowaGambling","26","145637","0.0-26.0","safe"
"B","-5","125","120","[-25,-5,-5,-25]","1","5","-5","0.5","iowaGambling","27","147470","0.0-27.0","safe"
"D","-25","120","95","[-25,-5,-5,-25]","3","10","-25","0.5","iowaGambling","28","148816","0.0-28.0","risky"
"B","-5","95","90","[-25,-5,-5,-25]","1","5","-5","0.5","iowaGambling","29","150314","0.0-29.0","safe"
"C","-5","90","85","[-25,-5,-5,-25]","2","5","-5","0.5","iowaGambling","30","152079","0.0-30.0","safe"
"C","5","85","90","[10,5,5,10]","2","5","-5","0.5","iowaGambling","31","153427","0.0-31.0","safe"
"C","-5","90","85","[-25,-5,-5,-25]","2","5","-5","0.5","iowaGambling","32","154878","0.0-32.0","safe"
"B","5","85","90","[10,5,5,10]","1","5","-5","0.5","iowaGambling","33","156159","0.0-33.0","safe"
"B","-5","90","85","[-25,-5,-5,-25]","1","5","-5","0.5","iowaGambling","34","157561","0.0-34.0","safe"
"C","5","85","90","[10,5,5,10]","2","5","-5","0.5","iowaGambling","35","159450","0.0-35.0","safe"
"C","-5","90","85","[-25,-5,-5,-25]","2","5","-5","0.5","iowaGambling","36","160958","0.0-36.0","safe"
"A","10","85","95","[10,5,5,10]","0","10","-25","0.5","iowaGambling","37","162220","0.0-37.0","risky"
"D","-25","95","70","[-25,-5,-5,-25]","3","10","-25","0.5","iowaGambling","38","163825","0.0-38.0","risky"
"A","-25","70","45","[-25,-5,-5,-25]","0","10","-25","0.5","iowaGambling","39","165679","0.0-39.0","risky"
"B","-5","45","40","[-25,-5,-5,-25]","1","5","-5","0.5","iowaGambling","40","166970","0.0-40.0","safe"
"C","5","40","45","[10,5,5,10]","2","5","-5","0.5","iowaGambling","41","168308","0.0-41.0","safe"
"C","5","45","50","[10,5,5,10]","2","5","-5","0.5","iowaGambling","42","169648","0.0-42.0","safe"
"C","5","50","55","[10,5,5,10]","2","5","-5","0.5","iowaGambling","43","171003","0.0-43.0","safe"
"C","5","55","60","[10,5,5,10]","2","5","-5","0.5","iowaGambling","44","172265","0.0-44.0","safe"
"C","5","60","65","[10,5,5,10]","2","5","-5","0.5","iowaGambling","45","173575","0.0-45.0","safe"
"C","5","65","70","[10,5,5,10]","2","5","-5","0.5","iowaGambling","46","174841","0.0-46.0","safe"
"C","-5","70","65","[-25,-5,-5,-25]","2","5","-5","0.5","iowaGambling","47","176208","0.0-47.0","safe"
"C","-5","65","60","[-25,-5,-5,-25]","2","5","-5","0.5","iowaGambling","48","177642","0.0-48.0","safe"
"C","-5","60","55","[-25,-5,-5,-25]","2","5","-5","0.5","iowaGambling","49","179038","0.0-49.0","safe"
"D","-25","55","30","[-25,-5,-5,-25]","3","10","-25","0.5","iowaGambling","50","180241","0.0-50.0","risky"
"A","10","30","40","[10,5,5,10]","0","10","-25","0.5","iowaGambling","51","181756","0.0-51.0","risky"
"A","10","40","50","[10,5,5,10]","0","10","-25","0.5","iowaGambling","52","183145","0.0-52.0","risky"
"A","10","50","60","[10,5,5,10]","0","10","-25","0.5","iowaGambling","53","184556","0.0-53.0","risky"
"A","10","60","70","[10,5,5,10]","0","10","-25","0.5","iowaGambling","54","186052","0.0-54.0","risky"
"A","10","70","80","[10,5,5,10]","0","10","-25","0.5","iowaGambling","55","187604","0.0-55.0","risky"
"A","-25","80","55","[-25,-5,-5,-25]","0","10","-25","0.5","iowaGambling","56","189035","0.0-56.0","risky"
"C","-5","55","50","[-25,-5,-5,-25]","2","5","-5","0.5","iowaGambling","57","190252","0.0-57.0","safe"
"B","5","50","55","[10,5,5,10]","1","5","-5","0.5","iowaGambling","58","191517","0.0-58.0","safe"
"B","-5","55","50","[-25,-5,-5,-25]","1","5","-5","0.5","iowaGambling","59","192792","0.0-59.0","safe"
"B","-5","50","45","[-25,-5,-5,-25]","1","5","-5","0.5","iowaGambling","60","193972","0.0-60.0","safe"
"C","-5","45","40","[-25,-5,-5,-25]","2","5","-5","0.5","iowaGambling","61","195732","0.0-61.0","safe"
"D","10","40","50","[10,5,5,10]","3","10","-25","0.5","iowaGambling","62","196881","0.0-62.0","risky"
"D","10","50","60","[10,5,5,10]","3","10","-25","0.5","iowaGambling","63","198105","0.0-63.0","risky"
"D","-25","60","35","[-25,-5,-5,-25]","3","10","-25","0.5","iowaGambling","64","199432","0.0-64.0","risky"
"B","-5","35","30","[-25,-5,-5,-25]","1","5","-5","0.5","iowaGambling","65","201033","0.0-65.0","safe"
"C","5","30","35","[10,5,5,10]","2","5","-5","0.5","iowaGambling","66","202427","0.0-66.0","safe"
"C","-5","35","30","[-25,-5,-5,-25]","2","5","-5","0.5","iowaGambling","67","204018","0.0-67.0","safe"
"C","5","30","35","[10,5,5,10]","2","5","-5","0.5","iowaGambling","68","205399","0.0-68.0","safe"
"C","-5","35","30","[-25,-5,-5,-25]","2","5","-5","0.5","iowaGambling","69","206817","0.0-69.0","safe"
"B","-5","30","25","[-25,-5,-5,-25]","1","5","-5","0.5","iowaGambling","70","208032","0.0-70.0","safe"
"A","10","25","35","[10,5,5,10]","0","10","-25","0.5","iowaGambling","71","209269","0.0-71.0","risky"
"C","5","35","40","[10,5,5,10]","2","5","-5","0.5","iowaGambling","72","210422","0.0-72.0","safe"
"C","-5","40","35","[-25,-5,-5,-25]","2","5","-5","0.5","iowaGambling","73","211732","0.0-73.0","safe"
"A","-25","35","10","[-25,-5,-5,-25]","0","10","-25","0.5","iowaGambling","74","213012","0.0-74.0","risky"
"B","5","10","15","[10,5,5,10]","1","5","-5","0.5","iowaGambling","75","214252","0.0-75.0","safe"
"B","-5","15","10","[-25,-5,-5,-25]","1","5","-5","0.5","iowaGambling","76","215481","0.0-76.0","safe"
"C","5","10","15","[10,5,5,10]","2","5","-5","0.5","iowaGambling","77","216783","0.0-77.0","safe"
"C","-5","15","10","[-25,-5,-5,-25]","2","5","-5","0.5","iowaGambling","78","218100","0.0-78.0","safe"
"B","5","10","15","[10,5,5,10]","1","5","-5","0.5","iowaGambling","79","219865","0.0-79.0","safe"
"B","-5","15","10","[-25,-5,-5,-25]","1","5","-5","0.5","iowaGambling","80","221209","0.0-80.0","safe"
"C","-5","10","5","[-25,-5,-5,-25]","2","5","-5","0.5","iowaGambling","81","223031","0.0-81.0","safe"
"A","10","5","15","[10,5,5,10]","0","10","-25","0.5","iowaGambling","82","224583","0.0-82.0","risky"
"A","-25","15","-10","[-25,-5,-5,-25]","0","10","-25","0.5","iowaGambling","83","226097","0.0-83.0","risky"
"C","-5","-10","-15","[-25,-5,-5,-25]","2","5","-5","0.5","iowaGambling","84","227596","0.0-84.0","safe"
"B","5","-15","-10","[10,5,5,10]","1","5","-5","0.5","iowaGambling","85","229192","0.0-85.0","safe"
"D","10","-10","0","[10,5,5,10]","3","10","-25","0.5","iowaGambling","86","230829","0.0-86.0","risky"
"B","5","0","5","[10,5,5,10]","1","5","-5","0.5","iowaGambling","87","232461","0.0-87.0","safe"
"C","5","5","10","[10,5,5,10]","2","5","-5","0.5","iowaGambling","88","233980","0.0-88.0","safe"
"C","-5","10","5","[-25,-5,-5,-25]","2","5","-5","0.5","iowaGambling","89","235391","0.0-89.0","safe"
"B","5","5","10","[10,5,5,10]","1","5","-5","0.5","iowaGambling","90","236765","0.0-90.0","safe"
"B","5","10","15","[10,5,5,10]","1","5","-5","0.5","iowaGambling","91","238260","0.0-91.0","safe"
"B","5","15","20","[10,5,5,10]","1","5","-5","0.5","iowaGambling","92","239665","0.0-92.0","safe"
"B","5","20","25","[10,5,5,10]","1","5","-5","0.5","iowaGambling","93","241024","0.0-93.0","safe"
"B","-5","25","20","[-25,-5,-5,-25]","1","5","-5","0.5","iowaGambling","94","242340","0.0-94.0","safe"
"C","5","20","25","[10,5,5,10]","2","5","-5","0.5","iowaGambling","95","244013","0.0-95.0","safe"
"B","-5","25","20","[-25,-5,-5,-25]","1","5","-5","0.5","iowaGambling","96","245706","0.0-96.0","safe"
"C","-5","20","15","[-25,-5,-5,-25]","2","5","-5","0.5","iowaGambling","97","246829","0.0-97.0","safe"
"B","5","15","20","[10,5,5,10]","1","5","-5","0.5","iowaGambling","98","248220","0.0-98.0","safe"
"B","-5","20","15","[-25,-5,-5,-25]","1","5","-5","0.5","iowaGambling","99","249970","0.0-99.0","safe"
